"26min - RawData"
"≤®≥§(nm)","Œ¸ ’÷µ"
250.00,1.83612
250.50,1.83537
251.00,1.88526
251.50,2.04998
252.00,2.34757
252.50,2.51229
253.00,2.47568
253.50,2.35015
254.00,2.23038
254.50,2.29425
255.00,2.16649
255.50,2.58518
256.00,2.78140
256.50,3.21852
257.00,2.21984
257.50,2.26292
258.00,2.24553
258.50,2.93252
259.00,2.37540
259.50,2.51596
260.00,2.39076
260.50,2.66809
261.00,2.58974
261.50,2.81647
262.00,3.03742
262.50,3.11274
263.00,2.76274
263.50,3.01806
264.00,2.77356
264.50,2.64510
265.00,2.62816
265.50,2.85641
266.00,2.74711
266.50,2.70848
267.00,2.80730
267.50,3.14826
268.00,3.05477
268.50,2.88944
269.00,2.93945
269.50,2.71748
270.00,2.72689
270.50,2.90802
271.00,3.03037
271.50,2.95863
272.00,2.85055
272.50,3.00621
273.00,3.03957
273.50,2.69272
274.00,2.69559
274.50,2.87638
275.00,3.03136
275.50,2.89509
276.00,2.91835
276.50,3.32894
277.00,3.99308
277.50,3.59523
278.00,3.10287
278.50,3.03834
279.00,3.40618
279.50,3.85855
280.00,3.98887
280.50,3.22292
281.00,3.06252
281.50,3.21367
282.00,2.97016
282.50,3.13519
283.00,3.11854
283.50,3.32478
284.00,3.09837
284.50,3.19359
285.00,3.26049
285.50,3.29223
286.00,3.28651
286.50,3.18584
287.00,3.16750
287.50,3.07436
288.00,3.07892
288.50,3.04963
289.00,3.13650
289.50,3.75648
290.00,6.00000
290.50,5.05400
291.00,3.36422
291.50,3.33435
292.00,3.51745
292.50,3.80028
293.00,4.04369
293.50,3.76920
294.00,3.50483
294.50,3.47179
295.00,3.56135
295.50,3.62563
296.00,3.60952
296.50,3.42511
297.00,3.44818
297.50,3.56573
298.00,4.07913
298.50,3.69683
299.00,3.69217
299.50,3.39966
300.00,3.51445
300.50,3.37850
301.00,3.72722
301.50,3.71850
302.00,3.73208
302.50,3.57030
303.00,3.85070
303.50,4.33295
304.00,4.46695
304.50,3.65046
305.00,4.14597
305.50,3.55147
306.00,3.60289
306.50,3.50523
307.00,3.57020
307.50,3.83183
308.00,3.66395
308.50,4.13430
309.00,3.65659
309.50,3.66947
310.00,3.56460
310.50,3.81909
311.00,3.70793
311.50,3.90978
312.00,3.72231
312.50,3.63118
313.00,3.63825
313.50,3.56278
314.00,3.63781
314.50,3.54470
315.00,3.67651
315.50,3.71930
316.00,3.59567
316.50,3.49068
317.00,3.47601
317.50,3.45922
318.00,3.72045
318.50,3.69167
319.00,3.94011
319.50,3.56059
320.00,3.52261
320.50,3.51304
321.00,3.57752
321.50,3.58812
322.00,3.56033
322.50,3.60739
323.00,3.59368
323.50,3.57677
324.00,3.58514
324.50,3.56683
325.00,3.50815
325.50,3.43446
326.00,3.36245
326.50,3.37012
327.00,3.34297
327.50,3.31649
328.00,3.26214
328.50,3.24725
329.00,3.23483
329.50,3.20090
330.00,3.17430
330.50,3.16783
331.00,3.15554
331.50,3.11786
332.00,3.08977
332.50,3.06654
333.00,3.05524
333.50,3.03935
334.00,3.01947
334.50,2.98119
335.00,2.97339
335.50,2.95272
336.00,2.94216
336.50,2.91806
337.00,2.89432
337.50,2.87610
338.00,2.84908
338.50,2.83167
339.00,2.81938
339.50,2.80782
340.00,2.79600
340.50,2.77237
341.00,2.75788
341.50,2.73806
342.00,2.72618
342.50,2.71336
343.00,2.70607
343.50,2.69077
344.00,2.67774
344.50,2.65579
345.00,2.64018
345.50,2.62628
346.00,2.61378
346.50,2.61366
347.00,2.60214
347.50,2.60093
348.00,2.58531
348.50,2.58437
349.00,2.57813
349.50,2.58179
350.00,2.57407
350.50,2.56918
351.00,2.56105
351.50,2.56209
352.00,2.56018
352.50,2.55974
353.00,2.56068
353.50,2.55816
354.00,2.55557
354.50,2.54862
355.00,2.55227
355.50,2.55181
356.00,2.55418
356.50,2.54727
357.00,2.54664
357.50,2.54265
358.00,2.55116
358.50,2.54514
359.00,2.54577
359.50,2.53725
360.00,2.54023
360.50,2.54079
361.00,2.54031
361.50,2.53236
362.00,2.52759
362.50,2.52769
363.00,2.52875
363.50,2.52401
364.00,2.50961
364.50,2.50072
365.00,2.48890
365.50,2.48030
366.00,2.46360
366.50,2.45074
367.00,2.43389
367.50,2.42121
368.00,2.40602
368.50,2.39428
369.00,2.38381
369.50,2.36988
370.00,2.34961
370.50,2.32549
371.00,2.30573
371.50,2.28650
372.00,2.26756
372.50,2.24688
373.00,2.22448
373.50,2.20113
374.00,2.17722
374.50,2.15742
375.00,2.13672
375.50,2.11400
376.00,2.09121
376.50,2.07077
377.00,2.05324
377.50,2.03642
378.00,2.01653
378.50,1.99838
379.00,1.97782
379.50,1.96255
380.00,1.94784
380.50,1.93310
381.00,1.91934
381.50,1.90472
382.00,1.89283
382.50,1.88016
383.00,1.86699
383.50,1.85631
384.00,1.84552
384.50,1.83393
385.00,1.82456
385.50,1.81523
386.00,1.81245
386.50,1.80860
387.00,1.80803
387.50,1.80600
388.00,1.80535
388.50,1.80510
389.00,1.80611
389.50,1.80809
390.00,1.81216
390.50,1.81674
391.00,1.82150
391.50,1.82458
392.00,1.82634
392.50,1.82825
393.00,1.82717
393.50,1.82966
394.00,1.82641
394.50,1.82491
395.00,1.81712
395.50,1.81265
396.00,1.80725
396.50,1.79968
397.00,1.78889
397.50,1.77651
398.00,1.76420
398.50,1.75134
399.00,1.73582
399.50,1.72033
400.00,1.70410
400.50,1.68998
401.00,1.67552
401.50,1.65883
402.00,1.64155
402.50,1.62323
403.00,1.60705
403.50,1.59130
404.00,1.57481
404.50,1.55710
405.00,1.54195
405.50,1.53187
406.00,1.52315
406.50,1.51331
407.00,1.50181
407.50,1.49341
408.00,1.48458
408.50,1.47949
409.00,1.47563
409.50,1.47599
410.00,1.47807
410.50,1.48309
411.00,1.48958
411.50,1.49557
412.00,1.50000
412.50,1.50162
413.00,1.51177
413.50,1.53068
414.00,1.55647
414.50,1.57648
415.00,1.59555
415.50,1.62020
416.00,1.64971
416.50,1.68165
417.00,1.71137
417.50,1.74214
418.00,1.77025
418.50,1.80013
419.00,1.82885
419.50,1.85522
420.00,1.88093
420.50,1.91135
421.00,1.94036
421.50,1.96562
422.00,1.98583
422.50,2.00844
423.00,2.02976
423.50,2.04568
424.00,2.06147
424.50,2.07377
425.00,2.08512
425.50,2.09022
426.00,2.09028
426.50,2.08385
427.00,2.07647
427.50,2.07054
428.00,2.06032
428.50,2.04153
429.00,2.01595
429.50,1.98857
430.00,1.96076
430.50,1.93181
431.00,1.89954
431.50,1.86695
432.00,1.82651
432.50,1.78134
433.00,1.73059
433.50,1.68186
434.00,1.62862
434.50,1.57276
435.00,1.51483
435.50,1.46100
436.00,1.40410
436.50,1.34679
437.00,1.28848
437.50,1.23368
438.00,1.17816
438.50,1.12292
439.00,1.06811
439.50,1.01522
440.00,0.96118
440.50,0.90601
441.00,0.85063
441.50,0.79696
442.00,0.74742
442.50,0.70288
443.00,0.66269
443.50,0.62686
444.00,0.59377
444.50,0.56453
445.00,0.53661
445.50,0.51017
446.00,0.48299
446.50,0.45630
447.00,0.43294
447.50,0.41324
448.00,0.39643
448.50,0.37891
449.00,0.36276
449.50,0.34752
450.00,0.33357
450.50,0.32019
451.00,0.30884
451.50,0.30092
452.00,0.29414
452.50,0.28950
453.00,0.28300
453.50,0.27814
454.00,0.27272
454.50,0.27159
455.00,0.26882
455.50,0.26634
456.00,0.26212
456.50,0.25944
457.00,0.25730
457.50,0.25338
458.00,0.25236
458.50,0.25108
459.00,0.24972
459.50,0.24225
460.00,0.23579
460.50,0.23213
461.00,0.23315
461.50,0.23451
462.00,0.23276
462.50,0.22844
463.00,0.22383
463.50,0.22330
464.00,0.22452
464.50,0.22597
465.00,0.22444
465.50,0.22264
466.00,0.21886
466.50,0.21617
467.00,0.21406
467.50,0.21389
468.00,0.21385
468.50,0.21308
469.00,0.20986
469.50,0.20478
470.00,0.20113
470.50,0.19996
471.00,0.20240
471.50,0.20566
472.00,0.20713
472.50,0.20594
473.00,0.20256
473.50,0.19964
474.00,0.20055
474.50,0.20536
475.00,0.20808
475.50,0.20559
476.00,0.19648
476.50,0.18768
477.00,0.18666
477.50,0.19429
478.00,0.20387
478.50,0.20657
479.00,0.20774
479.50,0.21214
480.00,0.21604
480.50,0.21200
481.00,0.20929
481.50,0.21002
482.00,0.21391
482.50,0.21130
483.00,0.20681
483.50,0.20186
484.00,0.19237
484.50,0.17595
485.00,0.17173
485.50,0.18522
486.00,0.20413
486.50,0.21041
487.00,0.20645
487.50,0.20892
488.00,0.21079
488.50,0.21164
489.00,0.20957
489.50,0.21262
490.00,0.21277
490.50,0.21208
491.00,0.21028
491.50,0.21357
492.00,0.21612
492.50,0.21570
493.00,0.21528
493.50,0.21667
494.00,0.21893
494.50,0.21579
495.00,0.21297
495.50,0.20924
496.00,0.21003
496.50,0.20978
497.00,0.21023
497.50,0.20771
498.00,0.20758
498.50,0.20989
499.00,0.19450
499.50,0.17472
500.00,0.15376
500.50,0.15113
501.00,0.15090
501.50,0.15190
502.00,0.15159
502.50,0.15227
503.00,0.15187
503.50,0.15220
504.00,0.15183
504.50,0.15189
505.00,0.15176
505.50,0.15200
506.00,0.15213
506.50,0.15218
507.00,0.15262
507.50,0.15268
508.00,0.15305
508.50,0.15220
509.00,0.15176
509.50,0.15141
510.00,0.15061
510.50,0.14974
511.00,0.14828
511.50,0.14910
512.00,0.14909
512.50,0.14976
513.00,0.14858
513.50,0.14899
514.00,0.14902
514.50,0.14903
515.00,0.14946
515.50,0.14971
516.00,0.15055
516.50,0.14940
517.00,0.14949
517.50,0.14879
518.00,0.15013
518.50,0.14932
519.00,0.14991
519.50,0.14849
520.00,0.15047
520.50,0.14915
521.00,0.14864
521.50,0.14652
522.00,0.14606
522.50,0.14546
523.00,0.14460
523.50,0.14507
524.00,0.14578
524.50,0.14571
525.00,0.14616
525.50,0.14644
526.00,0.14775
526.50,0.14693
527.00,0.14750
527.50,0.14669
528.00,0.14775
528.50,0.14613
529.00,0.14646
529.50,0.14635
530.00,0.14763
530.50,0.14740
531.00,0.14689
531.50,0.14616
532.00,0.14576
532.50,0.14647
533.00,0.14704
533.50,0.14661
534.00,0.14646
534.50,0.14621
535.00,0.14739
535.50,0.14593
536.00,0.14637
536.50,0.14555
537.00,0.14658
537.50,0.14494
538.00,0.14528
538.50,0.14444
539.00,0.14526
539.50,0.14374
540.00,0.14362
540.50,0.14302
541.00,0.14342
541.50,0.14290
542.00,0.14229
542.50,0.14269
543.00,0.14243
543.50,0.14283
544.00,0.14212
544.50,0.14294
545.00,0.14287
545.50,0.14367
546.00,0.14316
546.50,0.14335
547.00,0.14282
547.50,0.14340
548.00,0.14356
548.50,0.14328
549.00,0.14329
549.50,0.14354
550.00,0.14377
550.50,0.14320
551.00,0.14217
551.50,0.14249
552.00,0.14149
552.50,0.14094
553.00,0.13944
553.50,0.14048
554.00,0.14036
554.50,0.14053
555.00,0.13970
555.50,0.14060
556.00,0.14109
556.50,0.14053
557.00,0.14074
557.50,0.14110
558.00,0.14263
558.50,0.14104
559.00,0.14108
559.50,0.13993
560.00,0.14182
560.50,0.14075
561.00,0.14199
561.50,0.14102
562.00,0.14190
562.50,0.14074
563.00,0.14064
563.50,0.14066
564.00,0.13988
564.50,0.13963
565.00,0.13807
565.50,0.13980
566.00,0.13866
566.50,0.13972
567.00,0.13772
567.50,0.13963
568.00,0.13850
568.50,0.13983
569.00,0.13844
569.50,0.13941
570.00,0.13888
570.50,0.13957
571.00,0.14003
571.50,0.14010
572.00,0.14039
572.50,0.13989
573.00,0.14059
573.50,0.14000
574.00,0.14025
574.50,0.13958
575.00,0.13957
575.50,0.13824
576.00,0.13749
576.50,0.13692
577.00,0.13654
577.50,0.13582
578.00,0.13537
578.50,0.13593
579.00,0.13687
579.50,0.13645
580.00,0.13696
580.50,0.13688
581.00,0.13853
581.50,0.13677
582.00,0.13739
582.50,0.13657
583.00,0.13862
583.50,0.13706
584.00,0.13730
584.50,0.13634
585.00,0.13678
585.50,0.13572
586.00,0.13484
586.50,0.13528
587.00,0.13403
587.50,0.13412
588.00,0.13364
588.50,0.13563
589.00,0.13520
589.50,0.13411
590.00,0.13343
590.50,0.13436
591.00,0.12930
591.50,0.12854
592.00,0.12817
592.50,0.13414
593.00,0.13555
593.50,0.13529
594.00,0.13520
594.50,0.13436
595.00,0.13699
595.50,0.13594
596.00,0.13689
596.50,0.13436
597.00,0.13583
597.50,0.13484
598.00,0.13564
598.50,0.13504
599.00,0.14505
599.50,0.15282
600.00,0.16140
