"pbs1300-2 - RawData"
"≤®≥§(nm)","Œ¸ ’÷µ"
700.00,0.85244
701.00,0.82726
702.00,0.82475
703.00,0.81832
704.00,0.81100
705.00,0.80277
706.00,0.80014
707.00,0.79792
708.00,0.79098
709.00,0.79801
710.00,0.77299
711.00,0.76252
712.00,0.76897
713.00,0.76370
714.00,0.75235
715.00,0.74575
716.00,0.74295
717.00,0.72978
718.00,0.72926
719.00,0.72844
720.00,0.72540
721.00,0.71913
722.00,0.71397
723.00,0.70864
724.00,0.70151
725.00,0.69610
726.00,0.69097
727.00,0.68958
728.00,0.68386
729.00,0.68052
730.00,0.67461
731.00,0.67114
732.00,0.66406
733.00,0.66172
734.00,0.65766
735.00,0.65503
736.00,0.65094
737.00,0.64682
738.00,0.64248
739.00,0.63785
740.00,0.63360
741.00,0.63094
742.00,0.62909
743.00,0.62718
744.00,0.62347
745.00,0.61920
746.00,0.61644
747.00,0.60772
748.00,0.60955
749.00,0.60929
750.00,0.60584
751.00,0.60376
752.00,0.59994
753.00,0.59661
754.00,0.59384
755.00,0.59227
756.00,0.59243
757.00,0.59043
758.00,0.58687
759.00,0.58468
760.00,0.58218
761.00,0.58151
762.00,0.57911
763.00,0.57987
764.00,0.58000
765.00,0.57794
766.00,0.57661
767.00,0.57382
768.00,0.57237
769.00,0.57246
770.00,0.57283
771.00,0.57157
772.00,0.57225
773.00,0.56972
774.00,0.56746
775.00,0.56573
776.00,0.56565
777.00,0.56672
778.00,0.56709
779.00,0.56749
780.00,0.56583
781.00,0.56427
782.00,0.56289
783.00,0.56281
784.00,0.56301
785.00,0.56326
786.00,0.56394
787.00,0.56358
788.00,0.56121
789.00,0.56041
790.00,0.55823
791.00,0.55753
792.00,0.55682
793.00,0.55646
794.00,0.55698
795.00,0.55492
796.00,0.55318
797.00,0.55081
798.00,0.55239
799.00,0.55154
800.00,0.54912
801.00,0.54853
802.00,0.54722
803.00,0.54111
804.00,0.54286
805.00,0.54032
806.00,0.53980
807.00,0.53707
808.00,0.53390
809.00,0.53507
810.00,0.53326
811.00,0.53069
812.00,0.52623
813.00,0.52575
814.00,0.52244
815.00,0.52110
816.00,0.51869
817.00,0.51710
818.00,0.51364
819.00,0.51082
820.00,0.50978
821.00,0.50742
822.00,0.50301
823.00,0.49934
824.00,0.49804
825.00,0.49298
826.00,0.49169
827.00,0.49089
828.00,0.48716
829.00,0.48404
830.00,0.48077
831.00,0.47492
832.00,0.47233
833.00,0.47026
834.00,0.46652
835.00,0.46381
836.00,0.46190
837.00,0.46069
838.00,0.45700
839.00,0.45385
840.00,0.45008
841.00,0.44909
842.00,0.44698
843.00,0.44315
844.00,0.44283
845.00,0.43941
846.00,0.43605
847.00,0.43478
848.00,0.43312
849.00,0.43116
850.00,0.42832
851.00,0.42800
852.00,0.42620
853.00,0.42484
854.00,0.42299
855.00,0.42112
856.00,0.42028
857.00,0.41794
858.00,0.41750
859.00,0.41623
860.00,0.41567
861.00,0.41450
862.00,0.41273
863.00,0.41158
864.00,0.41161
865.00,0.41086
866.00,0.41036
867.00,0.40946
868.00,0.40965
869.00,0.40797
870.00,0.40841
871.00,0.40851
872.00,0.40763
873.00,0.40842
874.00,0.40826
875.00,0.40990
876.00,0.40764
877.00,0.40661
878.00,0.40448
879.00,0.40812
880.00,0.40858
881.00,0.40907
882.00,0.40965
883.00,0.41102
884.00,0.41184
885.00,0.41071
886.00,0.41160
887.00,0.41172
888.00,0.41281
889.00,0.41376
890.00,0.41288
891.00,0.41199
892.00,0.41336
893.00,0.41176
894.00,0.41522
895.00,0.41642
896.00,0.41660
897.00,0.41722
898.00,0.41772
899.00,0.41832
900.00,0.41871
901.00,0.41952
902.00,0.41884
903.00,0.41952
904.00,0.42029
905.00,0.42090
906.00,0.42288
907.00,0.42298
908.00,0.42286
909.00,0.42232
910.00,0.42148
911.00,0.42160
912.00,0.42193
913.00,0.42174
914.00,0.42259
915.00,0.42179
916.00,0.42029
917.00,0.41955
918.00,0.41765
919.00,0.41989
920.00,0.41999
921.00,0.42078
922.00,0.41958
923.00,0.41765
924.00,0.41616
925.00,0.41624
926.00,0.41535
927.00,0.41470
928.00,0.41371
929.00,0.41333
930.00,0.41189
931.00,0.41068
932.00,0.40892
933.00,0.40731
934.00,0.40657
935.00,0.40572
936.00,0.40400
937.00,0.40236
938.00,0.40065
939.00,0.39790
940.00,0.39662
941.00,0.39526
942.00,0.39416
943.00,0.39322
944.00,0.39021
945.00,0.38859
946.00,0.38513
947.00,0.38226
948.00,0.38108
949.00,0.37930
950.00,0.37835
951.00,0.37676
952.00,0.37382
953.00,0.37222
954.00,0.36824
955.00,0.36694
956.00,0.36492
957.00,0.36284
958.00,0.36151
959.00,0.35933
960.00,0.35640
961.00,0.35424
962.00,0.35162
963.00,0.34545
964.00,0.34776
965.00,0.34635
966.00,0.34391
967.00,0.34011
968.00,0.33756
969.00,0.33507
970.00,0.33347
971.00,0.33201
972.00,0.33029
973.00,0.32871
974.00,0.32457
975.00,0.32195
976.00,0.31896
977.00,0.31650
978.00,0.31518
979.00,0.31393
980.00,0.31071
981.00,0.30985
982.00,0.30664
983.00,0.30327
984.00,0.29990
985.00,0.29968
986.00,0.29933
987.00,0.29728
988.00,0.29503
989.00,0.29210
990.00,0.29039
991.00,0.28715
992.00,0.28643
993.00,0.28606
994.00,0.28448
995.00,0.28321
996.00,0.28046
997.00,0.27849
998.00,0.27660
999.00,0.27576
1000.00,0.27498
1001.00,0.27388
1002.00,0.27241
1003.00,0.26901
1004.00,0.26987
1005.00,0.26627
1006.00,0.26813
1007.00,0.26613
1008.00,0.26441
1009.00,0.26342
1010.00,0.26276
1011.00,0.26246
1012.00,0.26288
1013.00,0.26271
1014.00,0.26056
1015.00,0.25935
1016.00,0.25696
1017.00,0.25562
1018.00,0.25653
1019.00,0.25743
1020.00,0.25320
1021.00,0.25665
1022.00,0.25569
1023.00,0.25426
1024.00,0.25373
1025.00,0.25438
1026.00,0.25554
1027.00,0.25548
1028.00,0.25508
1029.00,0.25288
1030.00,0.25260
1031.00,0.25146
1032.00,0.25163
1033.00,0.25180
1034.00,0.25170
1035.00,0.25153
1036.00,0.24559
1037.00,0.24869
1038.00,0.24752
1039.00,0.24744
1040.00,0.24770
1041.00,0.24792
1042.00,0.24687
1043.00,0.24605
1044.00,0.24405
1045.00,0.24348
1046.00,0.24254
1047.00,0.24157
1048.00,0.24048
1049.00,0.23923
1050.00,0.23664
1051.00,0.23411
1052.00,0.23501
1053.00,0.23378
1054.00,0.23314
1055.00,0.23248
1056.00,0.23085
1057.00,0.22919
1058.00,0.22749
1059.00,0.22520
1060.00,0.22261
1061.00,0.22194
1062.00,0.22061
1063.00,0.21939
1064.00,0.21877
1065.00,0.21653
1066.00,0.21392
1067.00,0.21131
1068.00,0.20916
1069.00,0.20748
1070.00,0.20622
1071.00,0.20516
1072.00,0.20291
1073.00,0.19999
1074.00,0.19776
1075.00,0.19553
1076.00,0.19358
1077.00,0.19296
1078.00,0.19182
1079.00,0.18955
1080.00,0.18598
1081.00,0.18317
1082.00,0.18027
1083.00,0.17876
1084.00,0.17799
1085.00,0.17751
1086.00,0.17566
1087.00,0.17252
1088.00,0.16966
1089.00,0.16804
1090.00,0.16713
1091.00,0.16585
1092.00,0.16365
1093.00,0.16175
1094.00,0.16045
1095.00,0.15694
1096.00,0.15561
1097.00,0.15436
1098.00,0.15349
1099.00,0.15346
1100.00,0.15237
1101.00,0.15053
1102.00,0.14742
1103.00,0.14531
1104.00,0.14322
1105.00,0.14245
1106.00,0.14264
1107.00,0.14128
1108.00,0.14041
1109.00,0.13837
1110.00,0.13600
1111.00,0.13362
1112.00,0.13326
1113.00,0.13281
1114.00,0.13253
1115.00,0.13202
1116.00,0.12999
1117.00,0.12927
1118.00,0.12696
1119.00,0.12588
1120.00,0.12545
1121.00,0.12526
1122.00,0.12533
1123.00,0.12330
1124.00,0.12062
1125.00,0.12064
1126.00,0.11832
1127.00,0.11521
1128.00,0.11873
1129.00,0.11834
1130.00,0.11782
1131.00,0.11597
1132.00,0.11631
1133.00,0.11357
1134.00,0.11161
1135.00,0.11182
1136.00,0.11241
1137.00,0.10748
1138.00,0.11267
1139.00,0.11028
1140.00,0.10806
1141.00,0.10757
1142.00,0.10552
1143.00,0.10886
1144.00,0.10821
1145.00,0.10758
1146.00,0.10560
1147.00,0.10439
1148.00,0.10461
1149.00,0.10320
1150.00,0.10475
1151.00,0.10518
1152.00,0.10356
1153.00,0.10296
1154.00,0.10199
1155.00,0.10058
1156.00,0.10043
1157.00,0.09827
1158.00,0.09286
1159.00,0.09968
1160.00,0.09857
1161.00,0.09770
1162.00,0.09549
1163.00,0.09758
1164.00,0.09780
1165.00,0.09752
1166.00,0.09701
1167.00,0.09514
1168.00,0.09421
1169.00,0.09428
1170.00,0.09344
1171.00,0.09200
1172.00,0.09278
1173.00,0.08911
1174.00,0.09293
1175.00,0.09193
1176.00,0.09015
1177.00,0.08997
1178.00,0.09106
1179.00,0.09044
1180.00,0.08982
1181.00,0.08932
1182.00,0.08786
1183.00,0.08677
1184.00,0.08681
1185.00,0.08797
1186.00,0.08739
1187.00,0.08765
1188.00,0.08670
1189.00,0.08508
1190.00,0.08453
1191.00,0.08336
1192.00,0.08290
1193.00,0.08286
1194.00,0.08323
1195.00,0.08200
1196.00,0.08260
1197.00,0.08188
1198.00,0.08296
1199.00,0.08397
1200.00,0.08036
1201.00,0.08009
1202.00,0.08005
1203.00,0.07793
1204.00,0.07837
1205.00,0.07708
1206.00,0.07727
1207.00,0.07845
1208.00,0.07815
1209.00,0.07825
1210.00,0.07629
1211.00,0.07647
1212.00,0.07528
1213.00,0.07298
1214.00,0.07447
1215.00,0.07654
1216.00,0.07463
1217.00,0.07446
1218.00,0.06917
1219.00,0.06222
1220.00,0.07342
1221.00,0.07267
1222.00,0.07228
1223.00,0.07234
1224.00,0.07335
1225.00,0.07278
1226.00,0.07236
1227.00,0.07108
1228.00,0.07177
1229.00,0.07152
1230.00,0.07148
1231.00,0.07218
1232.00,0.07213
1233.00,0.07142
1234.00,0.07136
1235.00,0.07092
1236.00,0.07148
1237.00,0.07147
1238.00,0.07263
1239.00,0.07304
1240.00,0.07313
1241.00,0.07313
1242.00,0.07257
1243.00,0.07368
1244.00,0.07511
1245.00,0.07340
1246.00,0.07585
1247.00,0.07512
1248.00,0.07525
1249.00,0.07703
1250.00,0.07698
1251.00,0.07931
1252.00,0.07965
1253.00,0.08077
1254.00,0.08161
1255.00,0.08178
1256.00,0.08185
1257.00,0.07935
1258.00,0.08692
1259.00,0.08717
1260.00,0.08922
1261.00,0.09081
1262.00,0.09399
1263.00,0.09533
1264.00,0.09718
1265.00,0.09690
1266.00,0.10147
1267.00,0.10353
1268.00,0.10586
1269.00,0.10899
1270.00,0.11138
1271.00,0.11411
1272.00,0.11676
1273.00,0.11974
1274.00,0.12592
1275.00,0.13010
1276.00,0.13148
1277.00,0.13380
1278.00,0.13824
1279.00,0.14292
1280.00,0.14640
1281.00,0.15152
1282.00,0.15628
1283.00,0.15938
1284.00,0.16562
1285.00,0.16961
1286.00,0.17611
1287.00,0.18080
1288.00,0.18522
1289.00,0.19113
1290.00,0.19699
1291.00,0.20423
1292.00,0.20913
1293.00,0.21480
1294.00,0.22180
1295.00,0.22722
1296.00,0.23327
1297.00,0.24139
1298.00,0.24601
1299.00,0.25370
1300.00,0.25901
1301.00,0.26793
1302.00,0.27275
1303.00,0.27866
1304.00,0.28790
1305.00,0.29645
1306.00,0.30409
1307.00,0.31170
1308.00,0.31959
1309.00,0.32945
1310.00,0.34100
1311.00,0.35706
1312.00,0.37572
1313.00,0.38638
1314.00,0.39763
1315.00,0.40768
1316.00,0.41770
1317.00,0.42754
1318.00,0.43673
1319.00,0.44410
1320.00,0.45244
1321.00,0.46350
1322.00,0.47185
1323.00,0.48113
1324.00,0.49037
1325.00,0.49836
1326.00,0.50654
1327.00,0.51426
1328.00,0.52179
1329.00,0.52945
1330.00,0.53666
1331.00,0.54363
1332.00,0.55017
1333.00,0.55547
1334.00,0.56170
1335.00,0.56636
1336.00,0.57053
1337.00,0.57452
1338.00,0.57775
1339.00,0.58095
1340.00,0.58273
1341.00,0.58476
1342.00,0.58615
1343.00,0.58792
1344.00,0.58786
1345.00,0.58686
1346.00,0.58531
1347.00,0.58353
1348.00,0.58436
1349.00,0.57744
1350.00,0.57403
1351.00,0.57154
1352.00,0.56593
1353.00,0.56033
1354.00,0.55584
1355.00,0.54974
1356.00,0.54338
1357.00,0.53611
1358.00,0.52865
1359.00,0.52251
1360.00,0.51559
1361.00,0.50637
1362.00,0.49507
1363.00,0.48702
1364.00,0.47934
1365.00,0.46984
1366.00,0.46031
1367.00,0.45176
1368.00,0.44194
1369.00,0.43279
1370.00,0.42423
1371.00,0.41286
1372.00,0.40158
1373.00,0.39249
1374.00,0.38260
1375.00,0.37331
1376.00,0.36213
1377.00,0.35256
1378.00,0.34399
1379.00,0.33427
1380.00,0.32590
1381.00,0.31543
1382.00,0.30622
1383.00,0.29750
1384.00,0.28809
1385.00,0.27926
1386.00,0.27056
1387.00,0.26176
1388.00,0.25623
1389.00,0.24722
1390.00,0.23940
1391.00,0.23321
1392.00,0.22600
1393.00,0.21766
1394.00,0.21083
1395.00,0.20424
1396.00,0.19695
1397.00,0.19006
1398.00,0.18351
1399.00,0.17722
1400.00,0.17079
1401.00,0.16661
1402.00,0.16144
1403.00,0.15728
1404.00,0.15223
1405.00,0.14528
1406.00,0.13921
1407.00,0.13484
1408.00,0.13103
1409.00,0.12832
1410.00,0.12371
1411.00,0.11976
1412.00,0.11478
1413.00,0.10859
1414.00,0.10477
1415.00,0.10096
1416.00,0.09769
1417.00,0.09640
1418.00,0.09222
1419.00,0.08901
1420.00,0.08562
1421.00,0.08097
1422.00,0.07961
1423.00,0.07748
1424.00,0.07534
1425.00,0.07250
1426.00,0.06910
1427.00,0.06587
1428.00,0.06301
1429.00,0.06006
1430.00,0.05921
1431.00,0.05741
1432.00,0.05576
1433.00,0.05348
1434.00,0.05122
1435.00,0.04932
1436.00,0.04742
1437.00,0.04642
1438.00,0.04502
1439.00,0.04383
1440.00,0.04232
1441.00,0.04050
1442.00,0.03833
1443.00,0.03685
1444.00,0.03335
1445.00,0.03257
1446.00,0.03220
1447.00,0.03000
1448.00,0.03184
1449.00,0.02915
1450.00,0.02684
1451.00,0.02640
1452.00,0.02638
1453.00,0.02564
1454.00,0.02589
1455.00,0.02455
1456.00,0.02212
1457.00,0.02128
1458.00,0.02079
1459.00,0.02016
1460.00,0.01948
1461.00,0.02040
1462.00,0.01522
1463.00,0.01700
1464.00,0.01549
1465.00,0.01542
1466.00,0.01416
1467.00,0.01452
1468.00,0.01522
1469.00,0.01450
1470.00,0.01356
1471.00,0.01184
1472.00,0.01070
1473.00,0.01120
1474.00,0.01150
1475.00,0.01198
1476.00,0.01171
1477.00,0.01052
1478.00,0.01043
1479.00,0.00934
1480.00,0.00879
1481.00,0.00846
1482.00,0.00898
1483.00,0.00881
1484.00,0.00763
1485.00,0.00789
1486.00,0.00686
1487.00,0.00606
1488.00,0.00638
1489.00,0.00647
1490.00,0.00597
1491.00,0.00457
1492.00,0.00634
1493.00,0.00518
1494.00,0.00464
1495.00,0.00432
1496.00,0.00505
1497.00,0.00477
1498.00,0.00527
1499.00,0.00514
1500.00,0.00450
1501.00,0.00349
1502.00,0.00140
1503.00,0.00365
1504.00,0.00253
1505.00,0.00375
1506.00,0.00307
1507.00,0.00339
1508.00,0.00362
1509.00,0.00220
1510.00,0.00305
1511.00,0.00280
1512.00,0.00251
1513.00,0.00368
1514.00,0.00345
1515.00,0.00361
1516.00,0.00216
1517.00,0.00198
1518.00,0.00176
1519.00,0.00087
1520.00,0.00254
1521.00,-0.00069
1522.00,0.00206
1523.00,0.00132
1524.00,0.00122
1525.00,0.00177
1526.00,0.00076
1527.00,0.00179
1528.00,0.00230
1529.00,0.00151
1530.00,0.00134
1531.00,0.00143
1532.00,0.00196
1533.00,0.00173
1534.00,0.00156
1535.00,0.00209
1536.00,0.00178
1537.00,0.00222
1538.00,0.00162
1539.00,0.00028
1540.00,0.00120
1541.00,0.00111
1542.00,0.00211
1543.00,0.00226
1544.00,0.00107
1545.00,0.00178
1546.00,0.00071
1547.00,0.00121
1548.00,0.00114
1549.00,0.00091
1550.00,0.00162
1551.00,0.00133
1552.00,0.00058
1553.00,0.00038
1554.00,0.00062
1555.00,0.00060
1556.00,0.00099
1557.00,0.00142
1558.00,0.00132
1559.00,0.00121
1560.00,0.00027
1561.00,-0.00102
1562.00,0.00072
1563.00,0.00072
1564.00,0.00127
1565.00,0.00141
1566.00,0.00069
1567.00,0.00032
1568.00,0.00081
1569.00,0.00168
1570.00,0.00180
1571.00,0.00175
1572.00,-0.00122
1573.00,0.00068
1574.00,0.00092
1575.00,0.00036
1576.00,-0.00022
1577.00,-0.00184
1578.00,-0.00092
1579.00,0.00159
1580.00,0.00186
1581.00,0.00201
1582.00,0.00115
1583.00,0.00256
1584.00,0.00193
1585.00,0.00173
1586.00,0.00146
1587.00,0.00192
1588.00,0.00053
1589.00,0.00272
1590.00,0.00232
1591.00,0.00190
1592.00,0.00048
1593.00,0.00099
1594.00,0.00099
1595.00,0.00128
1596.00,0.00201
1597.00,0.00166
1598.00,0.00125
1599.00,0.00109
1600.00,0.00144
1601.00,0.00145
1602.00,0.00153
1603.00,0.00150
1604.00,0.00204
1605.00,0.00175
1606.00,0.00074
1607.00,0.00150
1608.00,0.00126
1609.00,0.00091
1610.00,0.00205
1611.00,0.00165
1612.00,0.00196
1613.00,0.00191
1614.00,0.00174
1615.00,0.00214
1616.00,0.00206
1617.00,0.00060
1618.00,0.00202
1619.00,0.00142
1620.00,0.00279
1621.00,0.00089
1622.00,0.00147
1623.00,0.00123
1624.00,0.00184
1625.00,0.00243
1626.00,0.00238
1627.00,0.00242
1628.00,0.00303
1629.00,0.00313
1630.00,0.00063
1631.00,0.00147
1632.00,0.00257
1633.00,0.00188
1634.00,0.00219
1635.00,0.00249
1636.00,0.00277
1637.00,0.00215
1638.00,0.00196
1639.00,0.00196
1640.00,0.00224
1641.00,0.00195
1642.00,0.00163
1643.00,0.00170
1644.00,0.00162
1645.00,0.00068
1646.00,0.00035
1647.00,0.00308
1648.00,0.00201
1649.00,0.00339
1650.00,0.00171
1651.00,-0.00149
1652.00,0.00092
1653.00,-0.00008
1654.00,-0.00084
1655.00,0.00187
1656.00,-0.00055
1657.00,-0.00118
1658.00,-0.00264
1659.00,-0.00256
1660.00,0.00160
1661.00,-0.00095
1662.00,-0.00002
1663.00,0.00150
1664.00,-0.00138
1665.00,-0.00300
1666.00,-0.00017
1667.00,0.00193
1668.00,-0.00092
1669.00,0.00040
1670.00,-0.00261
1671.00,0.00119
1672.00,0.00439
1673.00,0.00154
1674.00,0.00515
1675.00,0.00199
1676.00,0.00133
1677.00,0.00065
1678.00,0.00393
1679.00,0.00308
1680.00,0.00126
1681.00,0.00115
1682.00,-0.00275
1683.00,0.00293
1684.00,0.00157
1685.00,0.00071
1686.00,-0.00182
1687.00,0.00131
1688.00,0.00024
1689.00,0.00263
1690.00,0.00196
1691.00,0.00304
1692.00,0.00142
1693.00,0.00192
1694.00,0.00113
1695.00,0.00066
1696.00,0.00393
1697.00,0.00583
1698.00,0.00102
1699.00,0.00653
1700.00,-0.00035
1701.00,0.00047
1702.00,0.00377
1703.00,0.00468
1704.00,0.00354
1705.00,-0.00280
1706.00,0.00115
1707.00,0.00302
1708.00,0.00288
1709.00,0.00444
1710.00,-0.00223
1711.00,0.00137
1712.00,0.00224
1713.00,-0.00199
1714.00,0.00042
1715.00,0.00482
1716.00,0.00613
1717.00,-0.00211
1718.00,0.00016
1719.00,0.00335
1720.00,0.00801
1721.00,0.00201
1722.00,0.00090
1723.00,0.00322
1724.00,0.00692
1725.00,0.00325
1726.00,0.00588
1727.00,0.00185
1728.00,0.00390
1729.00,0.00537
1730.00,0.00308
1731.00,0.00431
1732.00,0.00456
1733.00,0.00653
1734.00,-0.00076
1735.00,0.00665
1736.00,0.00318
1737.00,0.00653
1738.00,0.00455
1739.00,0.00709
1740.00,0.00274
1741.00,0.00421
1742.00,0.00396
1743.00,0.00700
1744.00,0.00558
1745.00,0.00076
1746.00,-0.00023
1747.00,0.00349
1748.00,0.00315
1749.00,0.00275
1750.00,0.00413
1751.00,-0.00073
1752.00,0.00088
1753.00,0.00279
1754.00,0.00330
1755.00,0.00553
1756.00,0.00030
1757.00,0.00394
1758.00,0.00380
1759.00,0.00184
1760.00,0.00330
1761.00,0.00461
1762.00,0.00357
1763.00,0.00105
1764.00,0.00345
1765.00,0.00269
1766.00,0.00547
1767.00,0.00350
1768.00,0.00409
1769.00,-0.00011
1770.00,-0.00054
1771.00,0.00109
1772.00,0.00912
1773.00,0.00056
1774.00,0.00269
1775.00,-0.00017
1776.00,0.00111
1777.00,0.00003
1778.00,0.00269
1779.00,0.00693
1780.00,0.00127
1781.00,-0.00156
1782.00,-0.00142
1783.00,0.00751
1784.00,0.00311
1785.00,0.00018
1786.00,-0.00228
1787.00,0.00610
1788.00,0.00185
1789.00,0.00355
1790.00,-0.00098
1791.00,0.00073
1792.00,0.00105
1793.00,0.00214
1794.00,-0.00121
1795.00,-0.00090
1796.00,0.00121
1797.00,0.00276
1798.00,0.00085
1799.00,0.00090
1800.00,0.00325
1801.00,-0.00064
1802.00,0.00247
1803.00,0.00116
1804.00,-0.00247
1805.00,-0.00094
1806.00,0.00440
1807.00,0.00508
1808.00,0.00249
1809.00,0.00078
1810.00,0.00091
1811.00,0.00332
1812.00,0.00192
1813.00,0.00082
1814.00,0.00222
1815.00,-0.00018
1816.00,0.00020
1817.00,0.00610
1818.00,0.00443
1819.00,0.00224
1820.00,0.00390
1821.00,0.00377
1822.00,-0.00400
1823.00,0.00039
1824.00,-0.00071
1825.00,-0.00418
1826.00,0.00088
1827.00,-0.00229
1828.00,0.00089
1829.00,0.00225
1830.00,0.00304
1831.00,-0.00099
1832.00,0.00311
1833.00,0.00337
1834.00,0.00398
1835.00,-0.00142
1836.00,0.00359
1837.00,0.00081
1838.00,-0.00060
1839.00,-0.00115
1840.00,-0.00022
1841.00,-0.00329
1842.00,0.00053
1843.00,0.00390
1844.00,-0.00162
1845.00,0.00107
1846.00,0.00141
1847.00,0.00697
1848.00,0.00185
1849.00,0.00657
1850.00,-0.00221
1851.00,0.00221
1852.00,0.00307
1853.00,0.00344
1854.00,-0.00521
1855.00,-0.00040
1856.00,0.00603
1857.00,0.00213
1858.00,-0.00055
1859.00,-0.00308
1860.00,-0.00128
1861.00,-0.00092
1862.00,-0.00162
1863.00,0.00042
1864.00,-0.00278
1865.00,0.00440
1866.00,-0.01263
1867.00,-0.00291
1868.00,0.00056
1869.00,0.00469
1870.00,-0.00134
1871.00,-0.00012
1872.00,-0.00156
1873.00,-0.00199
1874.00,0.00489
1875.00,0.00321
1876.00,0.00230
1877.00,-0.00260
1878.00,0.00027
1879.00,-0.00071
1880.00,0.00325
1881.00,-0.00215
1882.00,0.00128
1883.00,-0.00504
1884.00,-0.00079
1885.00,0.00271
1886.00,-0.00180
1887.00,0.00262
1888.00,-0.00101
1889.00,-0.00035
1890.00,0.00061
1891.00,0.00043
1892.00,-0.00090
1893.00,-0.00034
1894.00,-0.00354
1895.00,0.00024
1896.00,-0.00095
1897.00,-0.00214
1898.00,-0.00300
1899.00,0.00243
1900.00,-0.00318
